Folder: Entropy-estimation-toolbox/experimental data/CC/charge

Note: README.md
# OCV and Entropy estimation toolbox
The toolbox and tutorial was created by Svenas Burba mail:(burba.svenas@uia.no)

This is a toolbox that is based in MatLab to estimate open circuit voltage and entropy coefficients from experiment charge/discharge data of full and half-cell formats. The toolbox is presented in a tutorial form with step by step guide on requirements and execution process. The repository contains all the neccessary files to complete the tutorial and toolbox it self to use for your own needs. Additionally, repository contains the data that was used to estimate entropy coefficients and open circuit voltages for half-cells used in the work: **Data Driven Entropy Coefficient Estimation for Large-Format Lithium-Ion Batteries**  

## Toolbox tutorial on github clone

You can clone and work with github repository in MatLab online or your local MatLab application following these steps:

1. Open Local MatLab or Matlab online
2. Navigate to "Home" menu
3. Hover over "New" dropdown menu
4. Click on "Git Clone"
5. In the dialog box "URL:" field past in the repository clone link and click "clone"
6. In the cloned repository open "Entropy_estimation_tutorial.mlx" and follow execution instructions 


## Toolbox tutorial in local drive

The toolbox repository can be downloaded and used locally on the system following these steps:
1. Extract the "Entropy-estimation-toolbox.zip" file at your desired location
2. Locate the "Entropy_estimation_tutorial.mlx" and open it in your MatLab application
3. Make sure that "Entropy-estimation-toolbox" is your working folder, **if not**, locate "browse for folder" and locate "Entropy-estimation-toolbox" folder in windows file browser
4. Then the "Entropy_estimation_tutorial.mlx" should work without errors following instructions

File: C-rate_data_cell1_Charge_0.5C@0℃.csv
Consecutive Time,Voltage,Current (raw),Capacity (normalized),Standard Discharge Capacity,Battery Temperature,Ambient Temperature,Step Num,Time[s],SOC
53447.9,3.094277,48.75467,0.000651462,97.61355,-0.7602996,-0.7900637,6,0,0
53607.9,3.290179,48.76414,0.022825,97.61355,-0.4928191,-0.696251,6,160,0.008115648
53767.9,3.369388,48.76979,0.0449984,97.61355,-0.4750554,-0.7993219,6,320,0.0162313
53927.9,3.387597,48.7581,0.0671726,97.61355,-0.276071,-0.7211107,6,480,0.0243469
54087.9,3.395288,48.75311,0.0893454,97.61355,-0.2454062,-0.7508485,6,640,0.0324626
54247.9,3.404512,48.75209,0.111521,97.61355,-0.2066857,-0.8253944,6,800,0.04057824
54407.9,3.414069,48.75627,0.133694,97.61355,-0.08249349,-0.7993219,6,960,0.0486939
54567.9,3.424459,48.76135,0.155868,97.61355,0.04066888,-0.7666765,6,1120,0.0568095
54727.9,3.432508,48.77411,0.178041,97.61355,0.1790828,-0.7413246,6,1280,0.0649252
54887.9,3.439439,48.75441,0.200215,97.61355,0.1756722,-0.8353659,6,1440,0.0730408
55047.9,3.443864,48.76744,0.222388,97.61355,0.212611,-0.7681503,6,1600,0.08115648
55207.9,3.4473,48.76001,0.244563,97.61355,0.2812002,-0.8353659,6,1760,0.0892721
55367.9,3.449576,48.75534,0.266738,97.61355,0.3337066,-0.7985739,6,1920,0.0973878
55527.9,3.451545,48.76561,0.288914,97.61355,0.4209745,-0.7708062,6,2080,0.105503
55687.9,3.453343,48.76753,0.311088,97.61355,0.518408,-0.7486553,6,2240,0.113619
55847.9,3.455499,48.76082,0.333263,97.61355,0.5087216,-0.7659222,6,2400,0.121735
56007.9,3.457368,48.75819,0.35544,97.61355,0.5465967,-0.8412296,6,2560,0.12985
56167.9,3.459581,48.76637,0.3776153,97.61355,0.6464456,-0.7260041,6,2720,0.137966
56327.9,3.462137,48.76886,0.399791,97.61355,0.6265408,-0.7459645,6,2880,0.146082
56487.9,3.465142,48.76085,0.421965,97.61355,0.6904396,-0.7876074,6,3040,0.154197
56647.9,3.46786,48.76566,0.444141,97.61355,0.7662029,-0.7418253,6,3200,0.162313
56807.9,3.471117,48.76779,0.466315,97.61355,0.8330005,-0.712579,6,3360,0.170429
56967.9,3.474727,48.7774,0.48849,97.61355,0.8373601,-0.8063803,6,3520,0.178544
57127.9,3.478317,48.76059,0.510663,97.61355,0.9548867,-0.785449,6,3680,0.18666
57287.9,3.481907,48.75458,0.532837,97.61355,0.9264618,-0.7773923,6,3840,0.194776
57447.9,3.486064,48.76028,0.555011,97.61355,0.9881351,-0.7608131,6,4000,0.2028912
57607.9,3.490489,48.75873,0.577186,97.61355,0.9716154,-0.7018732,6,4160,0.211007
57767.9,3.495117,48.75414,0.599359,97.61355,0.9550951,-0.8166274,6,4320,0.219122
57927.9,3.500111,48.75302,0.621533,97.61355,0.9638433,-0.8154008,6,4480,0.227238
58087.9,3.505504,48.76237,0.643707,97.61355,1.004869,-0.7893348,6,4640,0.235354
58247.9,3.511275,48.75743,0.665879,97.61355,1.12016,-0.7340224,6,4800,0.243469
58407.9,3.517804,48.76433,0.688051,97.61355,1.105581,-0.6504851,6,4960,0.251585
58567.9,3.525351,48.75623,0.710224,97.61355,1.115788,-0.6855486,6,5120,0.259701
58727.9,3.53373,48.74445,0.732397,97.61355,0.9815791,-0.8580256,6,5280,0.267816
58887.9,3.544037,48.77211,0.75457,97.61355,1.093943,-0.7632915,6,5440,0.275932
59047.9,3.556176,48.74983,0.776743,97.61355,1.143942,-0.7403548,6,5600,0.284048
59207.9,3.571172,48.7552,0.798916,97.61355,1.232732,-0.6965172,6,5760,0.292163
59367.932,3.589778,48.74503,0.821089,97.61355,1.423663,-0.5878334,6,5920,0.300279
59527.9,3.614191,48.75992,0.843262,97.61355,1.336794,-0.7430519,6,6080,0.308395
59687.9,3.6461,48.76686,0.8654361,97.61355,1.364934,-0.7978544,6,6240,0.31651
59847.9,3.650062,41.64504,0.886049,97.61355,1.377542,-0.7927452,6,6400,0.324626
60007.9,3.649859,34.19407,0.90331,97.61355,1.424647,-0.73787,6,6560,0.332742
60167.9,3.64963,27.98106,0.917501,97.61355,1.338548,-0.8168081,6,6720,0.340857
60327.9,3.649693,22.32665,0.929005,97.61355,1.300952,-0.7639444,6,6880,0.348973
60487.9,3.650253,18.49365,0.938271,97.61355,1.171911,-0.8180062,6,7040,0.357089
60647.9,3.649671,14.48289,0.945738,97.61355,0.9901341,-0.7298009,6,7200,0.365204
60807.9,3.649778,11.84209,0.951787,97.61355,0.8646977,-0.7789516,6,7360,0.37332
60967.9,3.650427,9.974388,0.956724,97.61355,0.7301255,-0.8535373,6,7520,0.381435
61127.9,3.649321,7.824707,0.960791,97.61355,0.6543118,-0.8011886,6,7680,0.389551
61287.9,3.650105,6.642946,0.964181,97.61355,0.432462,-0.8423676,6,7840,0.397667
61447.9,3.649966,5.700071,0.967035,97.61355,0.2885732,-0.9261656,6,8000,0.405782
387781,3.221328,48.7585,0.009698837,97.61355,-0.6424736,-0.8459334,22,8160,0.413898
387941,3.33734,48.7536,0.0318738,97.61355,-0.5583403,-0.7919972,22,8320,0.422014
388101,3.380662,48.7533,0.0540497,97.61355,-0.5103676,-0.8044279,22,8480,0.430129
388261,3.389015,48.7677,0.07622452,97.61355,-0.2834371,-0.8039968,22,8640,0.438245
388421,3.397269,48.76308,0.0983986,97.61355,-0.3510773,-0.8716646,22,8800,0.446361
388581,3.407104,48.75717,0.120574,97.61355,-0.1410767,-0.8654869,22,8960,0.454476
388741,3.41712,48.76495,0.14275,97.61355,-0.04488273,-0.8296607,22,9120,0.462592
388901,3.42659,48.77478,0.164924,97.61355,-0.04835139,-0.8708913,22,9280,0.470708
389061,3.434077,48.76254,0.187099,97.61355,0.0721127,-0.7125314,22,9440,0.478823
389221,3.439768,48.74062,0.209274,97.61355,0.1300956,-0.8357081,22,9600,0.486939
389381,3.443371,48.76437,0.231449,97.61355,0.2504103,-0.8284562,22,9760,0.495055
389541,3.44605,48.7621,0.253624,97.61355,0.2903255,-0.7506996,22,9920,0.50317
389701,3.448242,48.75281,0.2757988,97.61355,0.3250123,-0.7612536,22,10080,0.511286
389861,3.450203,48.75192,0.297974,97.61355,0.3697941,-0.7994486,22,10240,0.519401
390021,3.451941,48.76357,0.320148,97.61355,0.4565111,-0.8031569,22,10400,0.527517
390181,3.454154,48.76833,0.342322,97.61355,0.5216736,-0.7453814,22,10560,0.535633
390341,3.456258,48.75708,0.364496,97.61355,0.6665738,-0.6982698,22,10720,0.543748
390501,3.458727,48.76099,0.386671,97.61355,0.5799359,-0.6439028,22,10880,0.551864
390661,3.46134,48.75948,0.408845,97.61355,0.6789682,-0.761355,22,11040,0.55998
390821,3.463888,48.7464,0.431019,97.61355,0.8129336,-0.7251579,22,11200,0.568095
390981,3.467288,48.74925,0.453195,97.61355,0.6867548,-0.7988591,22,11360,0.576211
391141,3.470165,48.75623,0.47537,97.61355,0.8249006,-0.7509087,22,11520,0.584327
391301,3.473823,48.76024,0.497545,97.61355,0.8780184,-0.7504809,22,11680,0.592442
391461,3.477777,48.75316,0.51972,97.61355,0.8452418,-0.7682612,22,11840,0.600558
391621,3.481631,48.7549,0.541895,97.61355,0.8569363,-0.7791862,22,12000,0.608674
391781,3.485667,48.76277,0.564069,97.61355,0.9069644,-0.7818548,22,12160,0.616789
391941.4,3.489712,48.76357,0.586243,97.61355,0.877592,-0.7811164,22,12320,0.624905
392101,3.494654,48.76166,0.608418,97.61355,0.9069644,-0.7969606,22,12480,0.633021
392261,3.49969,48.76424,0.630595,97.61355,0.9404628,-0.8079207,22,12640,0.641136
392421,3.505232,48.75183,0.652769,97.61355,0.9656655,-0.8588877,22,12800,0.649252
392581,3.511013,48.76974,0.674943,97.61355,0.981876,-0.8426211,22,12960,0.657367
392741,3.517749,48.75926,0.697117,97.61355,1.03201,-0.7469851,22,13120,0.665483
392901.4,3.525565,48.75957,0.719293,97.61355,1.010907,-0.8134832,22,13280,0.673599
393061,3.534549,48.76073,0.741469,97.61355,0.9344904,-0.890179,22,13440,0.681714
393221,3.545384,48.76192,0.763644,97.61355,1.042929,-0.9474989,22,13600,0.68983
393381,3.558824,48.75943,0.78582,97.61355,1.180342,-0.7264669,22,13760,0.697946
393541,3.575175,48.75476,0.807995,97.61355,1.224302,-0.8031569,22,13920,0.706061
393701,3.596725,48.7617,0.830171,97.61355,1.263403,-0.7336865,22,14080,0.714177
393861.4,3.625094,48.75116,0.852346,97.61355,1.329584,-0.7427413,22,14240,0.722293
394021,3.650085,45.71189,0.874281,97.61355,1.364221,-0.7702801,22,14400,0.730408
394181.4,3.649668,37.7188,0.893313,97.61355,1.452532,-0.7174153,22,14560,0.738524
394341,3.649998,31.13983,0.908992,97.61355,1.316769,-0.8235782,22,14720,0.74664
394501,3.650151,25.05308,0.921694,97.61355,1.185235,-0.7744194,22,14880,0.754755
394661.4,3.649943,20.22818,0.93189,97.61355,1.107648,-0.8825304,22,15040,0.762871
394821,3.650148,16.15542,0.940054,97.61355,1.003075,-0.8515531,22,15200,0.770987
394981,3.649516,12.74047,0.946617,97.61355,0.887962,-0.8235782,22,15360,0.779102
395141,3.649816,10.36147,0.951933,97.61355,0.7818488,-0.8243136,22,15520,0.787218
395301.4,3.650427,8.985527,0.95628,97.61355,0.5416021,-0.9293196,22,15680,0.795334
395461,3.650182,7.248423,0.959876,97.61355,0.4987504,-0.8514422,22,15840,0.803449
395621,3.650073,6.131604,0.962884,97.61355,0.3494215,-0.842526,22,16000,0.811565
719710,2.989498,48.7617,0.006238608,97.61355,15.94075,10.54415,45,16160,0.81968
719869.972,3.167946,48.7529,0.02840461,97.61355,7.763751,-2.239753,45,16320,0.827796
720030,3.267328,48.75267,0.0505724,97.61355,4.588274,-2.473735,45,16480,0.835912
720190,3.300309,48.76103,0.0727392,97.61355,3.784739,-1.426957,45,16640,0.844027
720350,3.313569,48.76143,0.0949054,97.61355,3.221472,-1.043738,45,16800,0.852143
720510,3.329175,48.75508,0.117072,97.61355,2.860005,-0.894623,45,16960,0.860259
720669.972,3.346777,48.75787,0.139239,97.61355,2.405918,-0.8838141,45,17120,0.868374
720830,3.364777,48.76254,0.161407,97.61355,2.158542,-0.8684824,45,17280,0.87649
720990,3.381437,48.76526,0.183574,97.61355,1.741816,-0.9628952,45,17440,0.884606
721149.972,3.396244,48.76921,0.205742,97.61355,1.492614,-0.9490267,45,17600,0.892721
721309.972,3.407948,48.7513,0.227909,97.61355,1.467665,-0.9297411,45,17760,0.900837
721469.973,3.415882,48.76526,0.250075,97.61355,1.238777,-0.8565961,45,17920,0.908953
721630,3.421621,48.75569,0.272242,97.61355,1.047526,-0.8824574,45,18080,0.917068
721789.972,3.426042,48.75285,0.29441,97.61355,0.9778684,-0.914618,45,18240,0.925184
721950,3.430095,48.76015,0.316577,97.61355,0.9660602,-0.835835,45,18400,0.9333
722109.972,3.433273,48.75922,0.338743,97.61355,0.8704405,-0.8034009,45,18560,0.941415
722269.972,3.437197,48.74489,0.36091,97.61355,0.9962447,-0.7073592,45,18720,0.949531
722430,3.44057,48.76308,0.383077,97.61355,0.9613262,-0.7424054,45,18880,0.957646
722590,3.443733,48.75699,0.405244,97.61355,0.9184488,-0.6495027,45,19040,0.965762
722750,3.447906,48.76482,0.427411,97.61355,0.8237411,-0.8351535,45,19200,0.973878
722910,3.451425,48.75246,0.449578,97.61355,0.9425979,-0.6781327,45,19360,0.981993
723070,3.45473,48.771,0.471744,97.61355,0.8902364,-0.7155676,45,19520,0.990109
723230,3.458597,48.75725,0.493911,97.61355,0.8743511,-0.6559899,45,19680,0.998225
723265,3.459422,48.76112,0.4987606,97.61355,0.9510558,-0.6696457,45,19715,1